Folder: MulTamm2

Note: Res_1.txt
4.22584	5.33333E-08
4.53528	8.2E-08
5.13148	1.03E-07
5.80742	6.5E-08
6.48364	4.7E-08
7.18636	1.31E-07
7.91362	1.31E-07
8.72928	6.2E-08
9.55834	2E-08
10.3348	6.1E-08
11.17544	9.3E-08
12.14134	1.1E-08
13.09514	1.33E-07
13.7731	4.3E-08
14.56034	1.44E-07
15.30282	7.7E-08
16.07148	1.42E-07
16.83002	1.21E-07
17.58014	6.1E-08
18.36672	2.2E-08
19.12044	0
19.85824	4.7E-08
20.57256	0.000000113
21.32716	1.03E-07
22.0898	1.37E-07
22.82916	0.000000145
23.59478	1.33E-07
24.41524	1.72E-07
25.19732	1.55E-07
25.9507	2.01E-07
26.71698	0.000000193
27.46748	2.23E-07
28.21036	2.09E-07
28.97106	8.5E-08
29.72114	3.11E-07
30.45854	2.51E-07
31.217	2.83E-07
31.9784	2.89E-07
32.7107	2.97E-07
33.45844	3.23E-07
34.22366	3.73E-07
34.96468	3.83E-07
35.71276	4.25E-07
36.47204	4.25E-07
37.22146	4.09E-07
37.96406	4.85E-07
38.71336	5.15E-07
39.46798	4.83E-07
40.2234	5.41E-07
40.96756	5.17E-07
41.71406	5.43E-07
42.45914	5.41E-07
43.20532	6.03E-07
43.95572	6.37E-07
44.70616	5.51E-07
45.45384	6.35E-07
46.20452	6.15E-07
46.95442	6.67E-07
47.70844	6.71E-07
48.45976	6.27E-07
49.20234	5.85E-07
49.94184	6.95E-07
50.68796	6.49E-07
51.43688	0.000000691
52.1878	0.000000733
52.94028	0.000000715
53.68906	0.000000691
54.43914	0.000000771
55.18688	0.000000721
55.93866	7.19E-07
56.68412	7.79E-07
57.42472	0.000000797
58.16884	0.000000793
58.91806	0.000000807
59.66718	8.75E-07
60.41922	0.000000859
61.17166	7.91E-07
61.9201	9.03E-07
62.66824	0.000000815
63.41124	0.000000783
64.154	0.000000861
64.9031	0.000000897
65.65136	9.09E-07
66.40084	9.57E-07
67.1508	9.63E-07
67.89998	0.000000923
68.6489	0.000000873
69.39108	0.000000795
70.13074	8.73E-07
70.87708	0.000000845
71.6277	8.79E-07
72.37974	0.000000915
73.1336	8.87E-07
73.88254	0.000000861
74.63228	8.89E-07
75.37456	0.000000873
76.11362	0.000000813
76.85898	0.000000827
77.60822	0.000000825
78.35924	8.43E-07
79.1098	0.000000817
79.85526	8.87E-07
80.6078	8.21E-07
81.353	0.000000785
82.09388	0.000000857
82.8426	8.71E-07
83.59178	0.000001091
84.34208	0.000001531
85.09226	0.000002317
85.84166	0.000004277
86.58804	0.000005533
87.33168	0.000005689
88.0706	0.000005765
88.81594	0.000005817
89.56594	0.000005919
90.31754	0.000005941
91.07126	0.000006025
91.82594	0.000006071
92.57666	0.000006119
93.32542	0.000006097
94.06454	0.000006243
94.805	0.000006207
95.5511	0.000006265
96.3006	0.000006285
97.05186	0.000006293
97.80198	0.000006365
98.5524	0.000006365
99.30188	0.000006331
100.05206	0.000006373
100.8292	0.000006487
101.5802	0.000006521
102.325	0.000006437
103.0752	0.000006457
103.8258	0.000006475
104.5806	0.000006555
105.3304	0.000006493
106.0836	0.000006481
106.8304	0.000006551
107.58	0.000006575
108.3278	0.000006575
109.0864	0.000006679
109.8312	0.000006685
110.5716	0.000006629
111.32	0.000006609
112.0702	0.000006625
112.8204	0.000006775
113.5722	0.000006663
114.3256	0.000006685
115.0792	0.000006745
115.8298	0.0

Note: Res_2.txt
4.43624	5.79E-07
5.60182	5.32E-07
6.51388	5.68E-07
7.26588	5.74E-07
7.92208	5.5E-07
8.53098	5.24E-07
9.11434	5.06E-07
9.69368	5.22E-07
10.27022	5.18E-07
10.84342	4.78E-07
11.3823	4.32E-07
11.88044	4.26E-07
12.38522	3.6E-07
12.90838	3.2E-07
13.43452	3.44E-07
13.96002	2.7E-07
14.493	3.18E-07
15.01292	3.12E-07
15.53044	2.44E-07
16.03138	2.02E-07
16.52606	2.38E-07
16.999	2.24E-07
17.46534	2.1E-07
17.91834	1.86E-07
18.3538	1E-07
18.7767	0.000000124
19.19026	1.8E-08
19.59786	0.000000112
20.00372	1.92E-07
20.395	8.6E-08
20.7771	0
21.1712	0.000000068
21.54808	5.2E-08
21.9284	4.2E-08
22.29456	1.12E-07
22.6658	1.24E-07
23.04418	1.04E-07
23.40748	1.4E-07
23.77336	1.36E-07
24.13386	9.6E-08
24.49752	8.2E-08
24.85796	5.8E-08
25.21236	0.000000126
25.56986	3.4E-08
25.91476	9.2E-08
26.2649	1.02E-07
26.60124	5E-08
26.94512	2.2E-08
27.27176	9.2E-08
27.61162	7.4E-08
27.94218	1.24E-07
28.26018	1.8E-08
28.58866	9E-08
28.91026	8.2E-08
29.22222	1.14E-07
29.52534	1.06E-07
29.83634	1.28E-07
30.1465	0.000000142
30.44848	3.4E-08
30.74456	7.6E-08
31.0345	1.38E-07
31.32632	1.56E-07
31.62432	1.8E-07
31.91652	0.00000013
32.20322	1.14E-07
32.487	8.2E-08
32.7661	9.2E-08
33.03994	7.4E-08
33.31126	1.18E-07
33.58958	7.8E-08
33.86506	0.000000174
34.1368	1.12E-07
34.40408	1.96E-07
34.66918	0.000000168
34.9317	2.3E-07
35.1907	1.9E-07
35.446	1.86E-07
35.70026	1.82E-07
35.96074	0.00000012
36.21978	0.000000244
36.47668	0.000000214
36.7304	0.00000011
36.982	2.4E-07
37.2318	2.06E-07
37.47938	1.48E-07
37.72632	2.08E-07
37.97218	2.26E-07
38.21486	1.64E-07
38.45654	2.62E-07
38.69694	0.000000234
38.94152	2.24E-07
39.18662	1.54E-07
39.4308	0.000000208
39.67386	1.8E-07
39.91756	2.14E-07
40.1587	0.000000182
40.39854	1.86E-07
40.6379	2.06E-07
40.87536	1.92E-07
41.11114	2.32E-07
41.34622	2.02E-07
41.5808	2.08E-07
41.8136	1.98E-07
42.04504	2.48E-07
42.27498	2.16E-07
42.50482	2.32E-07
42.73252	2.44E-07
42.95768	0.000000294
43.18114	2.04E-07
43.40378	2.74E-07
43.62522	2.9E-07
43.84518	1.26E-07
44.06386	2.54E-07
44.28078	3.9E-07
44.49776	2.94E-07
44.713	2.92E-07
44.92696	3.48E-07
45.13998	3.4E-07
45.35204	3.04E-07
45.56282	2.96E-07
45.7728	3.24E-07
45.9815	3.4E-07
46.19002	2.94E-07
46.39764	2.74E-07
46.60438	3.52E-07
46.80946	3.16E-07
47.01474	2.54E-07
47.21924	2.72E-07
47.42234	2.44E-07
47.62448	3.14E-07
47.82652	3.58E-07
48.0269	2.3E-07
48.22672	2.72E-07
48.42546	2.98E-07
48.62336	3.76E-07
48.8197	4.08E-07
49.01578	3.06E-07
49.20916	3.64E-07
49.40036	2.98E-07
49.59048	3.56E-07
49.77994	2.62E-07
49.96772	3.26E-07
50.15474	3.52E-07
50.34036	4.24E-07
50.52558	3.64E-07
50.70928	3.58E-07
50.89608	2.9E-07
51.07898	3.44E-07
51.25992	3.18E-07
51.4402	3.94E-07
51.61922	4.42E-07
51.79772	3.86E-07
51.97522	3.42E-07
52.1521	4.86E-07
52.3287	3.48E-07
52.50416	4.56E-07
52.68296	3.57E-07
52.85782	3.28E-07
53.03226	4.48E-07
53.20552	3.8E-07
53.37828	3.9E-07
5

File: XRD_N2.txt
10.0013	13.8485
10.2443	11.4384
10.4873	11.1897
10.7302	10.8646
10.9732	10.635
11.2162	9.81255
11.4592	8.70314
11.7021	7.89977
11.9451	7.45983
12.1881	5.96787
12.431	4.95409
12.674	5.98699
12.917	4.05509
13.16	4.15073
13.4029	4.51415
13.6459	4.05509
13.8889	2.73527
14.1318	3.11783
14.3748	2.83091
14.6178	5.5088
14.8608	3.34736
15.1037	1.01377
15.3467	1.81714
15.5897	1.54935
15.8326	0.726855
16.0756	0.956389
16.3186	0.937261
16.5616	0.994644
16.8045	1.62586
17.0475	1.0329
17.2905	1.58761
17.5335	1.58761
17.7764	1.05203
18.0194	1.31982
18.2624	0.745983
18.5053	1.62586
18.7483	1.39633
18.9913	1.16679
19.2343	2.23795
19.4772	1.26243
19.7202	1.93191
19.9632	1.31982
20.2061	1.87452
20.4491	1.01377
20.6921	2.23795
20.9351	1.93191
21.178	2.65876
21.421	1.68324
21.664	0.612089
21.9069	2.04667
22.1499	9.10482
22.3929	6.04438
22.6359	9.46825
22.8788	5.47054
23.1218	2.39097
23.3648	3.28998
23.6078	4.22724
23.8507	3.50038
24.0937	2.81178
24.3367	2.48661
24.5796	2.42923
24.8226	2.85004
25.0656	2.33359
25.3086	2.02754
25.5515	2.0658
25.7945	2.6205
26.0375	1.51109
26.2804	2.10406
26.5234	3.0987
26.7664	3.06044
27.0094	4.36113
27.2523	13.1599
27.4953	6.02525
27.7383	3.7873
27.9812	4.51415
28.2242	3.32823
28.4672	4.66718
28.7102	6.90513
28.9531	6.23565
29.1961	7.32594
29.4391	18.0566
29.6821	9.69778
29.925	6.04438
30.168	14.6327
30.411	9.23871
30.6539	9.33435
30.8969	6.25478
31.1399	8.41622
31.3829	9.62127
31.6258	12.6435
31.8688	22.3795
32.1118	99.847
32.3547	61.9549
32.5977	37.8347
32.8407	11.1897
33.0837	5.66182
33.3266	5.18363
33.5696	5.73833
33.8126	6.23565
34.0555	4.6863
34.2985	3.80643
34.5415	4.70543
34.7845	4.32288
35.0274	5.04973
35.2704	6.42693
35.5134	7.70849
35.7564	12.0314
35.9993	10.922
36.2423	7.30681
36.4853	6.67559
36.7282	7.785
36.9712	6.44606
37.2142	6.04438
37.4572	7.97628
37.7001	21.7483
37.9431	22.3412
38.1861	12.3948
38.429	5.24101
38.672	6.02525
38.915	4.36113
39.158	4.18898
39.4009	4.342
39.6439	7.15379
39.8869	15.7804
40.1298	5.8531
40.3728	8.53099
40.6158	6.00612
40.8588	4.6863
41.1017	5.70008
41.3447	5.52793
41.5877	5.47054
41.8307	5.29839
42.0736	5.52793
42.3166	5.33665
42.5596	5.01148
42.8025	3.27085
43.0455	4.4759
43.2885	4.64805
43.5315	4.80107
43.7744	3.38562
44.0174	3.36649
44.2604	6.33129
44.5033	5.33665
44.7463	6.21653
44.9893	5.77659
45.2323	8.99005
45.4752	7.785
45.7182	13.8868
45.9612	8.51186
46.2041	6.86687
46.4471	9.25784
46.6901	30.8914
46.9331	16.6412
47.176	4.66718
47.419	4.80107
47.662	5.92961
47.905	4.39939
48.1479	5.66182
48.3909	4.32288
48.6339	2.63963
48.8768	2.56312
49.1198	3.40474
49.3628	4.03596
49.6058	2.67789
49.8487	3.32823
50.0917	3.17521
50.3347	3.21347
50.5776	6.59908
50.8206	10.1377
51.0636	6.38868
51.3066	4.1316
51.5495	6.25478
51.7925	4.45677
52.0355	6.35042
52.2785	5.56618
52.5214	6.10176
52.7644	5.26014
53.0074	4.85845
53.2503	3.80643
53.4933	3.82555
53.7363	5.73833
53.9793	9.75516
54.2222	6.65647
54.4652	3.38562
54.7082	4.91584
54.9511	7.55547
55.1941	8.01454
55.4371	4.38026
55.6801	3.72992
55.923	2.25708
56.166	3.50038
56.409	4.24637
56.6519	3.97858
56.8949	4.62892
57.1379	7.99541
57.3809	15.6848
57.6238	10.6159
57.8668	23.0107
58.1098	27.7353
58.3528	10.1568
58.5957	5.79572
58.8387	5.94874
59.0817	4.53328
59.3246	7.38332
59.5676	7.15379
59.8106	3.94032
60.0536	3.97858
60.2965	3.50038
60.5395	4.09334
60.7825	3.07957
61.0254	5.8531
61.2684	6.5417
61.5114	7.88064
61.7544	14.2502
61.9973	10.8263
62.2403	6.12089
62.4833	4.20811
62.7262	3.88294
62.9692	3.3091
63.2122	3.46213
63.4552	3.07957
63.6981	2.60138
63.9411	3.67253
64.1841	3.72992
64.4271	6.08263
64.67	6.96251
64.913	3.71079
65.156	3.25172
65.3989	2.56312
65.6419	4.26549
65.8849	4.49503
66.1279	2.85004
66.3708	2.08493
66.6138	3.32823
66.8568	4.22724
67.0997	3.69166
67.3427	6.73298
67.5857	13.0069
67.8287	10.8072
68.0716	6.56083
68.3146	9.5065
68.5576	9.90819
68.8005	4.18898
69.0435	3.72992
69.2865	3.32823
69.5295	2.88829
69.7724	3.42387
70.0154	3.82555
70.2584	2.39097
70.5014	3.48125
70.7443	3.55777
70.9873	3.25172
71.2303	3.59602
71.4732	3.48125
71.7162	4.72456
71.9592	4.01683
72.2022	3.61515
72.4451	3.69166
72.6881	4.07422
72.9311	3.82555
73.174	4.53328
73.417	5.06886
73.66	4.20811
73.903	4.49503
74.1459	4.74369
74.3889	5.7192
74.6319	5.47054
74.8748	4.18898
75.1178	4.62892
75.3608	4.43764
75.6038	3.80643
75.8467	3.40474
76.0897	3.90207
76.3327	4.22724
76.5757	3.69166
76.8186	3.25172
77.0616	3.63428
77.3046	3.11783
77.5475	5.06886
77.7905	11.7062
78.0335	11.1897
78.2765	6.67559
78.5194	4.60979
78.7624	3.17521
79.0054	4.85845
79.2483	5.26014
79.4913	3.32823
79.7343	2.90742
79.9773	3.40474
79.9975	3.15608

File: XRD_N2_1.txt
10.0013	1.13849
10.2443	1.11438
10.4873	1.1119
10.7302	1.10865
10.9732	1.10635
11.2162	1.09813
11.4592	1.08703
11.7021	1.079
11.9451	1.0746
12.1881	1.05968
12.431	1.04954
12.674	1.05987
12.917	1.04055
13.16	1.04151
13.4029	1.04514
13.6459	1.04055
13.8889	1.02735
14.1318	1.03118
14.3748	1.02831
14.6178	1.05509
14.8608	1.03347
15.1037	1.01014
15.3467	1.01817
15.5897	1.01549
15.8326	1.00727
16.0756	1.00956
16.3186	1.00937
16.5616	1.00995
16.8045	1.01626
17.0475	1.01033
17.2905	1.01588
17.5335	1.01588
17.7764	1.01052
18.0194	1.0132
18.2624	1.00746
18.5053	1.01626
18.7483	1.01396
18.9913	1.01167
19.2343	1.02238
19.4772	1.01262
19.7202	1.01932
19.9632	1.0132
20.2061	1.01875
20.4491	1.01014
20.6921	1.02238
20.9351	1.01932
21.178	1.02659
21.421	1.01683
21.664	1.00612
21.9069	1.02047
22.1499	1.09105
22.3929	1.06044
22.6359	1.09468
22.8788	1.05471
23.1218	1.02391
23.3648	1.0329
23.6078	1.04227
23.8507	1.035
24.0937	1.02812
24.3367	1.02487
24.5796	1.02429
24.8226	1.0285
25.0656	1.02334
25.3086	1.02028
25.5515	1.02066
25.7945	1.02621
26.0375	1.01511
26.2804	1.02104
26.5234	1.03099
26.7664	1.0306
27.0094	1.04361
27.2523	1.1316
27.4953	1.06025
27.7383	1.03787
27.9812	1.04514
28.2242	1.03328
28.4672	1.04667
28.7102	1.06905
28.9531	1.06236
29.1961	1.07326
29.4391	1.18057
29.6821	1.09698
29.925	1.06044
30.168	1.14633
30.411	1.09239
30.6539	1.09334
30.8969	1.06255
31.1399	1.08416
31.3829	1.09621
31.6258	1.12643
31.8688	1.22379
32.1118	1.99847
32.3547	1.61955
32.5977	1.37835
32.8407	1.1119
33.0837	1.05662
33.3266	1.05184
33.5696	1.05738
33.8126	1.06236
34.0555	1.04686
34.2985	1.03806
34.5415	1.04705
34.7845	1.04323
35.0274	1.0505
35.2704	1.06427
35.5134	1.07708
35.7564	1.12031
35.9993	1.10922
36.2423	1.07307
36.4853	1.06676
36.7282	1.07785
36.9712	1.06446
37.2142	1.06044
37.4572	1.07976
37.7001	1.21748
37.9431	1.22341
38.1861	1.12395
38.429	1.05241
38.672	1.06025
38.915	1.04361
39.158	1.04189
39.4009	1.04342
39.6439	1.07154
39.8869	1.1578
40.1298	1.05853
40.3728	1.08531
40.6158	1.06006
40.8588	1.04686
41.1017	1.057
41.3447	1.05528
41.5877	1.05471
41.8307	1.05298
42.0736	1.05528
42.3166	1.05337
42.5596	1.05011
42.8025	1.03271
43.0455	1.04476
43.2885	1.04648
43.5315	1.04801
43.7744	1.03386
44.0174	1.03366
44.2604	1.06331
44.5033	1.05337
44.7463	1.06217
44.9893	1.05777
45.2323	1.0899
45.4752	1.07785
45.7182	1.13887
45.9612	1.08512
46.2041	1.06867
46.4471	1.09258
46.6901	1.30891
46.9331	1.16641
47.176	1.04667
47.419	1.04801
47.662	1.0593
47.905	1.04399
48.1479	1.05662
48.3909	1.04323
48.6339	1.0264
48.8768	1.02563
49.1198	1.03405
49.3628	1.04036
49.6058	1.02678
49.8487	1.03328
50.0917	1.03175
50.3347	1.03213
50.5776	1.06599
50.8206	1.10138
51.0636	1.06389
51.3066	1.04132
51.5495	1.06255
51.7925	1.04457
52.0355	1.0635
52.2785	1.05566
52.5214	1.06102
52.7644	1.0526
53.0074	1.04858
53.2503	1.03806
53.4933	1.03826
53.7363	1.05738
53.9793	1.09755
54.2222	1.06656
54.4652	1.03386
54.7082	1.04916
54.9511	1.07555
55.1941	1.08015
55.4371	1.0438
55.6801	1.0373
55.923	1.02257
56.166	1.035
56.409	1.04246
56.6519	1.03979
56.8949	1.04629
57.1379	1.07995
57.3809	1.15685
57.6238	1.10616
57.8668	1.23011
58.1098	1.27735
58.3528	1.10157
58.5957	1.05796
58.8387	1.05949
59.0817	1.04533
59.3246	1.07383
59.5676	1.07154
59.8106	1.0394
60.0536	1.03979
60.2965	1.035
60.5395	1.04093
60.7825	1.0308
61.0254	1.05853
61.2684	1.06542
61.5114	1.07881
61.7544	1.1425
61.9973	1.10826
62.2403	1.06121
62.4833	1.04208
62.7262	1.03883
62.9692	1.03309
63.2122	1.03462
63.4552	1.0308
63.6981	1.02601
63.9411	1.03673
64.1841	1.0373
64.4271	1.06083
64.67	1.06963
64.913	1.03711
65.156	1.03252
65.3989	1.02563
65.6419	1.04265
65.8849	1.04495
66.1279	1.0285
66.3708	1.02085
66.6138	1.03328
66.8568	1.04227
67.0997	1.03692
67.3427	1.06733
67.5857	1.13007
67.8287	1.10807
68.0716	1.06561
68.3146	1.09507
68.5576	1.09908
68.8005	1.04189
69.0435	1.0373
69.2865	1.03328
69.5295	1.02888
69.7724	1.03424
70.0154	1.03826
70.2584	1.02391
70.5014	1.03481
70.7443	1.03558
70.9873	1.03252
71.2303	1.03596
71.4732	1.03481
71.7162	1.04725
71.9592	1.04017
72.2022	1.03615
72.4451	1.03692
72.6881	1.04074
72.9311	1.03826
73.174	1.04533
73.417	1.05069
73.66	1.04208
73.903	1.04495
74.1459	1.04744
74.3889	1.05719
74.6319	1.05471
74.8748	1.04189
75.1178	1.04629
75.3608	1.04438
75.6038	1.03806
75.8467	1.03405
76.0897	1.03902
76.3327	1.04227
76.5757	1.03692
76.8186	1.03252
77.0616	1.03634
77.3046	1.03118
77.5475	1.05069
77.7905	1.11706
78.0335	1.1119
78.2765	1.06676
78.5194	1.0461
78.7624	1.03175
79.0054	1.04858
79.2483	1.0526
79.4913	1.03328
79.7343	1.02907
79.9773	1.03405
79.9975	1.03156

File: XRD_O2.txt
10.0013	9.35053
10.2443	9.27751
10.4873	9.73997
10.7302	9.86978
10.9732	10.2146
11.2162	10.3931
11.4592	10.1294
11.7021	10.8312
11.9451	10.5756
12.1881	10.6446
12.431	10.5756
12.674	10.1537
12.917	9.55336
13.16	9.24912
13.4029	8.91242
13.6459	7.98345
13.8889	7.46014
14.1318	6.68533
14.3748	6.07683
14.6178	5.65089
14.8608	5.74419
15.1037	15.7276
15.3467	4.48663
15.5897	3.77267
15.8326	3.46842
16.0756	3.13578
16.3186	2.95323
16.5616	2.36907
16.8045	2.29605
17.0475	2.09322
17.2905	1.9269
17.5335	1.72407
17.7764	1.35086
18.0194	1.33057
18.2624	1.31029
18.5053	1.03038
18.7483	0.981705
18.9913	0.989818
19.2343	1.17642
19.4772	0.70991
19.7202	0.860006
19.9632	0.803213
20.2061	0.713967
20.4491	0.576042
20.6921	0.547645
20.9351	0.405663
21.178	0.604438
21.421	0.486796
21.664	0.40972
21.9069	0.531419
22.1499	0.689627
22.3929	1.20482
22.6359	3.69559
22.8788	42.0226
23.1218	3.90654
23.3648	1.12774
23.6078	1.31435
23.8507	2.1419
24.0937	2.23115
24.3367	1.2819
24.5796	0.819439
24.8226	0.401606
25.0656	0.571985
25.3086	0.535475
25.5515	0.332644
25.7945	0.38538
26.0375	0.365097
26.2804	0.438116
26.5234	0.39755
26.7664	0.478682
27.0094	0.40972
27.2523	0.494909
27.4953	1.5902
27.7383	3.11955
27.9812	0.953308
28.2242	0.381323
28.4672	0.438116
28.7102	0.255568
28.9531	0.320474
29.1961	0.482739
29.4391	0.519249
29.6821	0.567928
29.925	0.523305
30.168	0.36104
30.411	0.803213
30.6539	4.71786
30.8969	0.604438
31.1399	0.413776
31.3829	0.624721
31.6258	1.10746
31.8688	1.15208
32.1118	2.0202
32.3547	6.72184
32.5977	47.8033
32.8407	51.2961
33.0837	4.17833
33.3266	1.61048
33.5696	1.13991
33.8126	1.39954
34.0555	1.1602
34.2985	1.24133
34.5415	0.997931
34.7845	0.803213
35.0274	0.74642
35.2704	0.920855
35.5134	0.7951
35.7564	0.547645
35.9993	0.851892
36.2423	1.46039
36.4853	0.928968
36.7282	0.677457
36.9712	0.494909
37.2142	0.547645
37.4572	0.673401
37.7001	0.864062
37.9431	0.888402
38.1861	2.47454
38.429	25.1552
38.672	19.0499
38.915	2.21492
39.158	0.847836
39.4009	0.831609
39.6439	0.681514
39.8869	0.774816
40.1298	1.42793
40.3728	9.32619
40.6158	1.11152
40.8588	0.649061
41.1017	0.535475
41.3447	0.584155
41.5877	0.608495
41.8307	0.730194
42.0736	0.993874
42.3166	0.636891
42.5596	0.507079
42.8025	0.425946
43.0455	0.519249
43.2885	0.450286
43.5315	0.219058
43.7744	0.442173
44.0174	0.430003
44.2604	0.584155
44.5033	0.73425
44.7463	0.632834
44.9893	0.811326
45.2323	1.0385
45.4752	1.26161
45.7182	0.762647
45.9612	0.72208
46.2041	2.0486
46.4471	6.37297
46.6901	63.6891
46.9331	9.43978
47.176	3.8822
47.419	7.80496
47.662	1.82954
47.905	0.961421
48.1479	0.571985
48.3909	0.450286
48.6339	0.608495
48.8768	0.340757
49.1198	0.547645
49.3628	0.551702
49.6058	0.547645
49.8487	0.559815
50.0917	0.523305
50.3347	0.531419
50.5776	0.182548
50.8206	0.39755
51.0636	0.584155
51.3066	0.786986
51.5495	1.82954
51.7925	0.466513
52.0355	0.283964
52.2785	0.523305
52.5214	2.05266
52.7644	2.22709
53.0074	1.04255
53.2503	1.56586
53.4933	0.653118
53.7363	0.498966
53.9793	0.462456
54.2222	0.340757
54.4652	0.320474
54.7082	0.74642
54.9511	10.9488
55.1941	3.82946
55.4371	1.02633
55.6801	1.00604
55.923	0.519249
56.166	0.288021
56.409	0.462456
56.6519	0.356983
56.8949	0.519249
57.1379	0.369153
57.3809	0.567928
57.6238	0.604438
57.8668	1.6186
58.1098	12.0117
58.3528	14.1455
58.5957	7.26137
58.8387	4.65296
59.0817	0.843779
59.3246	0.312361
59.5676	0.292077
59.8106	0.328587
60.0536	0.227171
60.2965	0.900572
60.5395	1.08718
60.7825	0.389437
61.0254	0.332644
61.2684	0.507079
61.5114	0.283964
61.7544	0.40972
61.9973	0.811326
62.2403	1.92284
62.4833	1.54558
62.7262	1.4969
62.9692	0.40972
63.2122	0.210945
63.4552	0.381323
63.6981	0.438116
63.9411	0.438116
64.1841	0.271794
64.4271	0.283964
64.67	0.235285
64.913	0.279908
65.156	0.223115
65.3989	0.42189
65.6419	1.04255
65.8849	0.486796
66.1279	0.0527362
66.3708	0.300191
66.6138	0.243398
66.8568	0.117642
67.0997	0.300191
67.3427	0.129812
67.5857	0.705854
67.8287	0.571985
68.0716	2.05266
68.3146	2.59219
68.5576	4.73814
68.8005	7.95911
69.0435	2.02426
69.2865	0.511135
69.5295	0.219058
69.7724	0.434059
70.0154	0.154152
70.2584	0.308304
70.5014	0.170378
70.7443	0.255568
70.9873	0.3367
71.2303	0.356983
71.4732	0.37321
71.7162	0.198775
71.9592	0.133869
72.2022	0.263681
72.4451	0.219058
72.6881	0.799156
72.9311	1.69161
73.174	0.937082
73.417	1.15614
73.66	0.920855
73.903	0.377267
74.1459	0.34887
74.3889	0.442173
74.6319	0.275851
74.8748	0.38538
75.1178	0.588211
75.3608	0.616608
75.6038	0.750477
75.8467	0.202832
76.0897	0.158209
76.3327	0.215001
76.5757	0.288021
76.8186	0.40972
77.0616	0.527362
77.3046	0.807269
77.5475	4.18644
77.7905	4.07691
78.0335	1.94718
78.2765	0.957365
78.5194	0.900572
78.7624	1.93501
79.0054	1.30218
79.2483	0.592268
79.4913	0.320474
79.7343	0.539532
79.9773	0.434059
79.9975	0.430003

File: XRD_O2_1.txt
10.0013	0.0935053
10.2443	0.0927751
10.4873	0.0973997
10.7302	0.0986978
10.9732	0.102146
11.2162	0.103931
11.4592	0.101294
11.7021	0.108312
11.9451	0.105756
12.1881	0.106446
12.431	0.105756
12.674	0.101537
12.917	0.09553365
13.16	0.0924912
13.4029	0.0891242
13.6459	0.0798345
13.8889	0.0746014
14.1318	0.0668533
14.3748	0.0607683
14.6178	0.0565089
14.8608	0.0574419
15.1037	0.157276
15.3467	0.0448663
15.5897	0.0377267
15.8326	0.0346842
16.0756	0.0313578
16.3186	0.0295323
16.5616	0.0236907
16.8045	0.0229605
17.0475	0.0209322
17.2905	0.019269
17.5335	0.01724068
17.7764	0.01350858
18.0194	0.0133057
18.2624	0.0131029
18.5053	0.0103038
18.7483	0.009817046
18.9913	0.009898179
19.2343	0.0117642
19.4772	0.007099103
19.7202	0.008600057
19.9632	0.008032129
20.2061	0.00713967
20.4491	0.005760415
20.6921	0.005476451
20.9351	0.004056631
21.178	0.00604438
21.421	0.004867957
21.664	0.004097197
21.9069	0.005314186
22.1499	0.006896272
22.3929	0.0120482
22.6359	0.0369559
22.8788	0.420226
23.1218	0.0390654
23.3648	0.0112774
23.6078	0.0131435
23.8507	0.021419
24.0937	0.0223115
24.3367	0.012819
24.5796	0.008194394
24.8226	0.004016064
25.0656	0.005719849
25.3086	0.005354752
25.5515	0.003326437
25.7945	0.003853799
26.0375	0.003650968
26.2804	0.004381161
26.5234	0.003975498
26.7664	0.004786824
27.0094	0.004097197
27.2523	0.004949089
27.4953	0.015902
27.7383	0.0311955
27.9812	0.009533082
28.2242	0.003813233
28.4672	0.004381161
28.7102	0.002555677
28.9531	0.003204738
29.1961	0.00482739
29.4391	0.005192487
29.6821	0.005679283
29.925	0.005233053
30.168	0.003610401
30.411	0.008032129
30.6539	0.0471786
30.8969	0.00604438
31.1399	0.004137763
31.3829	0.006247211
31.6258	0.0110746
31.8688	0.0115208
32.1118	0.02020202
32.3547	0.0672184
32.5977	0.478033
32.8407	0.512961
33.0837	0.0417833
33.3266	0.0161048
33.5696	0.0113991
33.8126	0.0139954
34.0555	0.011602
34.2985	0.01241329
34.5415	0.009979311
34.7845	0.008032129
35.0274	0.0074642
35.2704	0.009208551
35.5134	0.007950996
35.7564	0.005476451
35.9993	0.008518924
36.2423	0.01460387
36.4853	0.009289684
36.7282	0.006774573
36.9712	0.004949089
37.2142	0.005476451
37.4572	0.006734007
37.7001	0.008640623
37.9431	0.008884021
38.1861	0.0247454
38.429	0.251552
38.672	0.190499
38.915	0.0221492
39.158	0.008478358
39.4009	0.008316093
39.6439	0.006815139
39.8869	0.007748164
40.1298	0.01427934
40.3728	0.0932619
40.6158	0.0111152
40.8588	0.006490609
41.1017	0.005354752
41.3447	0.005841548
41.5877	0.006084946
41.8307	0.007301935
42.0736	0.009938745
42.3166	0.00636891
42.5596	0.005070788
42.8025	0.004259462
43.0455	0.005192487
43.2885	0.00450286
43.5315	0.002190581
43.7744	0.004421727
44.0174	0.004300028
44.2604	0.005841548
44.5033	0.007342501
44.7463	0.006328344
44.9893	0.008113261
45.2323	0.010385
45.4752	0.0126161
45.7182	0.007626465
45.9612	0.007220802
46.2041	0.020486
46.4471	0.0637297
46.6901	0.636891
46.9331	0.0943978
47.176	0.038822
47.419	0.0780496
47.662	0.0182954
47.905	0.009614214
48.1479	0.005719849
48.3909	0.00450286
48.6339	0.006084946
48.8768	0.00340757
49.1198	0.005476451
49.3628	0.005517018
49.6058	0.005476451
49.8487	0.00559815
50.0917	0.005233053
50.3347	0.005314186
50.5776	0.001825484
50.8206	0.003975498
51.0636	0.005841548
51.3066	0.007869863
51.5495	0.0182954
51.7925	0.004665125
52.0355	0.002839641
52.2785	0.005233053
52.5214	0.0205266
52.7644	0.0222709
53.0074	0.0104255
53.2503	0.0156586
53.4933	0.006531175
53.7363	0.004989656
53.9793	0.004624559
54.2222	0.00340757
54.4652	0.003204738
54.7082	0.0074642
54.9511	0.109488
55.1941	0.0382946
55.4371	0.0102633
55.6801	0.0100604
55.923	0.005192487
56.166	0.002880208
56.409	0.004624559
56.6519	0.003569835
56.8949	0.005192487
57.1379	0.003691534
57.3809	0.005679283
57.6238	0.00604438
57.8668	0.016186
58.1098	0.120117
58.3528	0.141455
58.5957	0.0726137
58.8387	0.0465296
59.0817	0.008437792
59.3246	0.003123606
59.5676	0.002920774
59.8106	0.003285871
60.0536	0.002271713
60.2965	0.00900572
60.5395	0.01087177
60.7825	0.003894365
61.0254	0.003326437
61.2684	0.005070788
61.5114	0.002839641
61.7544	0.004097197
61.9973	0.008113261
62.2403	0.0192284
62.4833	0.0154558
62.7262	0.014969
62.9692	0.004097197
63.2122	0.002109448
63.4552	0.003813233
63.6981	0.004381161
63.9411	0.004381161
64.1841	0.002717942
64.4271	0.002839641
64.67	0.002352846
64.913	0.002799075
65.156	0.002231147
65.3989	0.004218896
65.6419	0.0104255
65.8849	0.004867957
66.1279	0.000527362
66.3708	0.003001907
66.6138	0.002433978
66.8568	0.001176423
67.0997	0.003001907
67.3427	0.001298122
67.5857	0.007058537
67.8287	0.005719849
68.0716	0.0205266
68.3146	0.0259219
68.5576	0.0473814
68.8005	0.0795911
69.0435	0.0202426
69.2865	0.005111355
69.5295	0.002190581
69.7724	0.004340595
70.0154	0.00154152
70.2584	0.003083039
70.5014	0.001703785
70.7443	0.002555677
70.9873	0.003367003
71.2303	0.003569835
71.4732	0.0037321
71.7162	0.001987749
71.9592	0.001338688
72.2022	0.00263681
72.4451	0.002190581
72.6881	0.007991562
72.9311	0.0169161
73.174	0.009370817
73.417	0.0115614
73.66	0.009208551
73.903	0.003772666
74.1459	0.003488702
74.3889	0.004421727
74.6319	0.002758509
74.8748	0.003853799
75.1178	0.005882114
75.3608	0.006166078
75.6038	0.007504767
75.8467	0.002028315
76.0897	0.001582086
76.3327	0.002150014
76.5757	0.002880208
76.8186	0.004097197
77.0616	0.00527362
77.3046	0.008072695
77.5475	0.0418644
77.7905	0.0407691
78.0335	0.0194718
78.2765	0.009573648
78.5194	0.00900572
78.7624	0.0193501
79.0054	0.0130218
79.2483	0.005922681
79.4913	0.003204738
79.7343	0.005395319
79.9773	0.004340595
79.9975	0.004300028