Folder: MulTamm2 (part 2)

File: XRD_ref.txt
10	0.10812	0.05887	0.08556
10.24	0.00416	0.00257	0.00789
10.48	0.00406	0.0025	0.39674
10.72	0.00396	0.00243	0.00936
10.96	0.00388	0.00237	0.00557
11.2	0.0038	0.00231	0.00492
11.44	0.00373	0.00225	0.00483
11.68	0.00367	0.0022	0.00461
11.92	0.00362	0.00216	0.00462
12.16	0.00357	0.00211	0.00468
12.4	0.00368	0.00207	0.00481
12.64	0.00368	0.00203	0.00505
12.88	0.00371	0.00207	0.00551
13.12	0.00378	0.00205	0.00641
13.36	0.0039	0.00204	0.00849
13.6	0.0041	0.00204	0.01498
13.84	0.00445	0.00216	0.05994
14.08	0.00508	0.00225	1.60669
14.32	0.00639	0.00246	0.02653
14.56	0.00972	0.00296	0.01002
14.8	0.02282	0.00463	0.00639
15.04	0.29036	0.01893	0.00504
15.28	0.09005	0.08292	0.00439
15.52	0.01529	0.00589	0.00402
15.76	0.00742	0.00303	0.0038
16	0.00522	0.00233	0.00364
16.24	0.00436	0.00206	0.00358
16.48	0.00386	0.00192	0.00353
16.72	0.00358	0.00185	0.00337
16.96	0.00341	0.00175	0.00338
17.2	0.00318	0.00182	0.00339
17.44	0.00313	0.00182	0.00355
17.68	0.0031	0.0019	0.00359
17.92	0.00297	0.00191	0.00357
18.16	0.00299	0.00193	0.0036
18.4	0.00301	0.00195	0.00365
18.64	0.00327	0.00198	0.00372
18.88	0.00332	0.00201	0.00392
19.12	0.0035	0.00211	0.00419
19.36	0.00359	0.00224	0.00438
19.6	0.0037	0.00231	0.00464
19.84	0.00383	0.00247	0.00502
20.08	0.0041	0.00265	0.00577
20.32	0.00443	0.0028	0.00719
20.56	0.00473	0.003	0.01011
20.8	0.00521	0.00325	0.02098
21.04	0.00575	0.00361	0.32801
21.28	0.0065	0.0041	0.06286
21.52	0.00763	0.00486	0.01659
21.76	0.00958	0.00614	0.01266
22	0.013	0.00838	0.01354
22.24	0.02069	0.01327	0.01786
22.48	0.04713	0.02824	0.02942
22.72	1.1857	0.14437	0.08136
22.96	8.05256	1.60651	10.97916
23.2	3.49417	0.32846	0.55207
23.44	0.05363	0.09331	2.28864
23.68	0.02255	0.01937	0.05429
23.92	0.01603	0.01084	0.04632
24.16	0.05885	0.05058	3.35905
24.4	0.1337	0.008	0.11561
24.64	0.01089	0.00711	3.33104
24.88	0.00864	0.00492	0.09014
25.12	0.00811	0.00466	0.04756
25.36	0.0082	0.00465	0.28296
25.6	0.00849	0.00478	0.16417
25.84	0.00902	0.00496	0.04027
26.08	0.01005	0.00544	0.57958
26.32	0.0117	0.00623	0.03315
26.56	0.01455	0.00754	0.03922
26.8	0.01972	0.00986	0.08644
27.04	0.03097	0.01547	0.84881
27.28	0.06697	0.03648	0.64497
27.52	0.4429	0.63121	0.08335
27.76	15.24014	0.19093	0.07881
28	0.17358	0.93634	2.18561
28.24	0.0494	0.03184	0.18459
28.48	0.02811	0.01545	0.02764
28.72	0.02134	0.01153	0.02487
28.96	0.01902	0.01035	0.03796
29.2	0.01853	0.01021	0.6513
29.44	0.01923	0.01065	0.03712
29.68	0.02071	0.01154	0.02959
29.92	0.02305	0.01289	0.03201
30.16	0.02653	0.01483	0.03823
30.4	0.03444	0.01798	0.04717
30.64	0.04235	0.12997	0.06342
30.88	0.04631	0.02719	0.09644
31.12	0.05927	0.03246	0.19381
31.36	0.0803	0.04333	1.06105
31.6	0.11678	0.06191	6.78386
31.84	0.18855	0.09762	0.96097
32.08	0.36533	0.18246	0.39744
32.32	1.08668	0.51221	0.85071
32.56	83.39292	43.60421	29.5385
32.8	36.3227	12.3715	86.16919
33.04	2.25325	2.64401	1.77526
33.28	0.47651	0.38236	5.68065
33.52	0.22106	0.15566	0.35656
33.76	0.65027	0.46831	0.53795
34	0.08874	0.05762	12.63153
34.24	0.05781	0.03694	1.54629
34.48	0.04274	0.02692	0.25585
34.72	0.03358	0.02082	0.13126
34.96	0.02772	0.01688	0.18924
35.2	0.02407	0.0143	2.45833
35.44	0.02235	0.01274	0.13536
35.68	0.02294	0.01217	0.10678
35.92	0.03039	0.01371	0.0413
36.16	0.09397	0.02655	0.04126
36.4	1.83896	1.11747	0.06953
36.64	0.05075	0.03004	0.56538
36.88	0.02511	0.01322	3.56126
37.12	0.02166	0.01129	0.10787
37.36	0.02346	0.01189	0.04603
37.6	0.03013	0.01439	0.04197
37.84	0.04741	0.02013	0.07577
38.08	0.10718	0.03524	1.57574
38.32	0.99947	0.09916	0.9826
38.56	4.82387	4.54313	0.07037
38.8	0.53226	1.34091	0.06019
39.04	0.08796	0.1561	0.17837
39.28	0.04833	0.04137	2.30297
39.52	0.04257	0.02929	0.13013
39.76	0.05699	0.03372	0.25555
40	0.13188	0.06311	0.13704
40.24	1.44296	0.29084	1.18107
40.48	1.80219	4.04426	2.70397
40.72	0.12021	0.15244	0.13191
40.96	0.04508	0.0427	0.04995
41.2	0.02508	0.0211	0.04036
41.44	0.01685	0.01326	0.0197
41.68	0.01277	0.00954	0.01537
41.92	0.01032	0.00744	0.01401
42.16	0.00899	0.00623	0.01515
42.4	0.00813	0.00549	0.03
42.64	0.00746	0.00493	0.29655
42.88	0.00733	0.00466	0.10869
43.12	0.00728	0.00462	0.02529
43.36	0.00755	0.00467	0.01285
43.6	0.00805	0.00484	0.0123
43.84	0.00884	0.0051	0.01381
44.08	0.01004	0.00557	0.02128
44.32	0.01197	0.00629	0.19829
44.56	0.01518	0.00735	0.03069
44.8	0.02266	0.00899	0.04771
45.04	0.05793	0.01228	2.20781
45.28	0.77891	0.03814	0.11447
45.52	0.55834	0.36424	0.04757
45.76	0.05829	0.05294	0.05549
46	0.072	0.03991	0.20824
46.24	0.1775	0.07322	0.15287
46.48	9.51683	0.23806	0.41954
46.72	0.60538	17.68256	14.39728
46.96	15.49729	0.64865	4.07514
47.2	1.88677	0.16798	14.33069
47.44	6.00206	0.57386	1.29692
47.68	0.21235	5.99389	0.78057
47.92	0.09003	0.14227	0.25688
48.16	0.04603	0.05199	0.06888
48.4	0.02864	0.03749	0.04146
48.64	0.02107	0.01685	0.05446
48.88	0.01727	0.01246	0.03189
49.12	0.01605	0.01069	0.2501
49.36	0.02119	0.02905	0.15076
49.6	0.60381	0.02375	0.12986
49.84	0.07403	0.00849	0.03011
50.08	0.25419	0.01148	0.04048
50.32	0.01947	0.04083	0.12952
50.56	0.019	0.01079	3.42728
50.8	0.0272	0.01277	0.19556
51.04	0.05952	0.02089	0.19726
51.28	0.44159	0.05567	0.02871
51.52	3.68138	1.60037	0.02275
51.76	0.08856	0.43055	0.06197
52	0.03888	0.04456	0.28813
52.24	0.04446	0.03293	0.38156
52.48	0.65888	0.09022	0.06107
52.72	0.37506	0.52106	0.28653
52.96	1.49059	0.79774	0.80919
53.2	1.95633	0.06691	0.46942
53.44	0.12511	0.94962	0.24419
53.68	0.04144	0.06351	0.25017
53.92	0.04738	0.01945	0.60998
54.16	0.02241	0.02261	0.78209
54.4	0.02937	0.01217	1.22239
54.64	0.09005	0.01516	0.73698
54.88	0.57546	0.03302	1.3304
55.12	0.1026	1.05161	0.51555
55.36	0.74828	0.33141	0.05833
55.6	1.09384	0.05431	0.08879
55.84	0.30748	0.70341	0.17495
56.08	0.03932	0.11634	0.4555
56.32	0.02786	0.02164	0.35644
56.56	0.0275	0.01782	0.94449
56.8	0.03196	0.01989	2.25404
57.04	0.04522	0.02677	0.14087
57.28	0.06097	0.0335	0.25228
57.52	0.09866	0.05215	5.2652
57.76	0.21799	0.09868	0.66945
58	2.09677	0.27065	0.53357
58.24	5.69177	5.27528	0.47945
58.48	6.016	6.21764	3.07646
58.72	6.0533	0.94815	11.13252
58.96	0.39419	3.40857	0.81728
59.2	0.1369	0.22526	2.6712
59.44	0.07611	0.0759	0.46235
59.68	0.05548	0.04239	0.42637
59.92	0.06195	0.03061	8.85959
60.16	0.57033	0.03206	0.91512
60.4	0.74159	0.34665	0.20746
60.64	0.05804	0.49799	0.20082
60.88	0.02896	0.04538	0.4002
61.12	0.02381	0.01856	1.43029
61.36	0.02489	0.01707	0.07406
61.6	0.03261	0.02181	0.05023
61.84	0.05949	0.04291	0.07336
62.08	0.28676	0.39292	0.12763
62.32	1.81464	2.10406	0.49626
62.56	3.13708	0.23507	0.41746
62.8	0.51943	1.16782	1.17453
63.04	0.06228	1.22728	1.70348
63.28	0.03085	0.04886	3.25729
63.52	0.03939	0.02043	0.52165
63.76	0.01697	0.02022	0.09301
64	0.01306	0.03054	0.03263
64.24	0.01246	0.00834	0.01974
64.48	0.01355	0.00739	0.0173
64.72	0.0177	0.00759	0.01313
64.96	0.03121	0.00915	0.01302
65.2	0.11693	0.01432	0.03533
65.44	1.15241	0.04167	0.08432
65.68	0.17038	1.28689	0.04382
65.92	0.0344	0.16349	0.03251
66.16	0.02023	0.02048	0.01532
66.4	0.01719	0.01191	0.01962
66.64	0.01812	0.01034	0.05932
66.88	0.02333	0.01113	0.15822
67.12	0.04676	0.01518	0.05365
67.36	0.17862	0.04689	0.09718
67.6	0.17982	0.03019	1.03492
67.84	0.11154	0.07952	0.24771
68.08	0.40133	0.18756	0.29307
68.32	1.12257	0.51105	3.35537
68.56	2.74841	0.2662	2.93486
68.8	4.18843	1.96795	4.74133
69.04	3.49697	2.72511	0.4271
69.28	0.15672	0.23701	0.24005
69.52	0.06488	0.07137	0.57494
69.76	0.03427	0.03408	0.14832
70	0.02284	0.02047	0.04552
70.24	0.01728	0.01418	0.0414
70.48	0.0151	0.01078	0.3153
70.72	0.01991	0.00952	0.11336
70.96	0.31974	0.02975	0.03458
71.2	0.08001	0.0379	0.01987
71.44	0.01172	0.00715	0.03978
71.68	0.00874	0.00593	0.07205
71.92	0.00826	0.00594	0.09157
72.16	0.00887	0.00669	0.1003
72.4	0.01176	0.00858	0.01899
72.64	0.0244	0.01408	0.05726
72.88	0.03568	0.0554	0.09064
73.12	0.30206	0.32142	0.49482
73.36	0.71408	0.26906	0.34469
73.6	0.59263	0.66321	0.04204
73.84	0.14154	0.631	0.16947
74.08	0.07471	0.03967	0.17339
74.32	0.03202	0.02965	0.33612
74.56	0.03215	0.03996	0.74641
74.8	0.08081	0.03218	0.77045
75.04	0.68799	0.42275	0.45007
75.28	1.21718	0.36903	0.20508
75.52	0.40064	0.05098	0.14542
75.76	0.05914	0.33507	0.14138
76	0.2569	0.10881	0.07419
76.24	0.1745	0.02074	0.06038
76.48	0.02436	0.09553	0.04034
76.72	0.02362	0.07585	0.04285
76.96	0.03528	0.02476	0.04477
77.2	0.16208	0.04021	0.06932
77.44	0.24095	0.11578	0.1693
77.68	0.15343	1.95963	2.19354
77.92	1.15491	1.22503	3.86187
78.16	2.90407	0.22688	1.37031
78.4	1.14001	0.06499	0.4808
78.64	3.37293	0.06365	0.7589
78.88	1.7368	0.18985	0.3871
79.12	0.13399	2.05993	0.48641
79.36	0.07317	0.86772	0.85615
79.6	0.15509	0.0878	0.36837
79.84	0.38999	0.40023	0.56378
79.98	0.59441	0.10476	0.62152