Folder: MulTamm2/3번째시료

File: XRD_3rd
10.1559	0.0495925
10.3989	0.05028029
10.6418	0.0468411
10.8848	0.0477353
11.1278	0.0463941
11.3708	0.0446401
11.6137	0.0457062
11.8567	0.044021
12.0997	0.0464972
12.3427	0.042611
12.5856	0.04003164
12.8286	0.0430925
13.0716	0.039275
13.3145	0.04003164
13.5575	0.0374867
13.8005	0.0360078
14.0435	0.0362486
14.2864	0.0394126
14.5294	0.0364893
14.7724	0.0388967
15.0153	0.0388967
15.2583	0.0479073
15.5013	0.0341163
15.7443	0.0337036
15.9872	0.0340131
16.2302	0.03532
16.4732	0.03263748
16.7161	0.03391
16.9591	0.0339444
17.2021	0.0336348
17.4451	0.032328
17.688	0.032328
17.931	0.0320528
18.174	0.0315026
18.417	0.0308835
18.6599	0.0312618
18.9029	0.0295766
19.1459	0.03074595
19.3888	0.0324655
19.6318	0.0301269
19.8748	0.0288544
20.1178	0.0295766
20.3607	0.0304364
20.6037	0.0305396
20.8467	0.0315026
21.0896	0.0302989
21.3326	0.0304364
21.5756	0.0296454
21.8186	0.0306772
22.0615	0.0306084
22.3045	0.032156
22.5475	0.0404443
22.7904	0.167418
23.0334	0.0553358
23.2764	0.0587062
23.5194	0.0328094
23.7623	0.0326719
24.0053	0.0342539
24.2483	0.0320184
24.4913	0.0289232
24.7342	0.03050521
24.9772	0.0310555
25.2202	0.0286137
25.4631	0.02882003
25.7061	0.0304364
25.9491	0.0294735
26.1921	0.0308491
26.435	0.0302989
26.678	0.0289232
26.921	0.0312618
27.1639	0.0306772
27.4069	0.0348385
27.6499	0.0536507
27.8929	0.0735633
28.1358	0.0360766
28.3788	0.0327407
28.6218	0.0316745
28.8647	0.0317777
29.1077	0.0341163
29.3507	0.03360044
29.5937	0.0300581
29.8366	0.032156
30.0796	0.0341507
30.3226	0.0303333
30.5656	0.0431613
30.8085	0.0322248
31.0515	0.0307803
31.2945	0.031365
31.5374	0.0354232
31.7804	0.0423015
32.0234	0.0499364
32.2664	0.0765897
32.5093	0.487602
32.7523	0.647178
32.9953	0.227809
33.2382	0.0635898
33.4812	0.0443994
33.7242	0.045156
33.9672	0.038656
34.2101	0.0346666
34.4531	0.0320872
34.6961	0.034701
34.9391	0.0314338
35.182	0.0319153
35.425	0.0331877
35.668	0.03311896
35.9109	0.0311243
36.1539	0.0351824
36.3969	0.04931733
36.6399	0.0326719
36.8828	0.0287856
37.1258	0.0322248
37.3688	0.0306428
37.6117	0.0313306
37.8547	0.030574
38.0977	0.0341163
38.3407	0.0486295
38.5836	0.214947
38.8266	0.060976
39.0696	0.0344258
39.3125	0.031193
39.5555	0.03026447
39.7985	0.030402
40.0415	0.03955016
40.2844	0.08054476
40.5274	0.0734945
40.7704	0.0353888
41.0134	0.0309867
41.2563	0.0306772
41.4993	0.02906077
41.7423	0.0288544
41.9852	0.0298862
42.2282	0.0287512
42.4712	0.0280634
42.7142	0.0283385
42.9571	0.0284073
43.2001	0.0274788
43.4431	0.0283042
43.686	0.0277883
43.929	0.0289232
44.172	0.0278571
44.415	0.02882003
44.6579	0.0287169
44.9009	0.0286825
45.1439	0.0299893
45.3868	0.03391
45.6298	0.0341851
45.8728	0.0308491
46.1158	0.0338756
46.3587	0.047357
46.6017	0.227637
46.8447	0.156791
47.0877	0.0548887
47.3306	0.0599099
47.5736	0.108505
47.8166	0.043402
48.0595	0.0310211
48.3025	0.0291296
48.5455	0.0304364
48.7885	0.0291639
49.0314	0.0277195
49.2744	0.0290264
49.5174	0.0299893
49.7603	0.0282354
50.0033	0.0277539
50.2463	0.03002373
50.4893	0.0283385
50.7322	0.0289576
50.9752	0.0285449
51.2182	0.0316745
51.4611	0.0543385
51.7041	0.0365237
51.9471	0.02978299
52.1901	0.0302301
52.433	0.032328
52.676	0.0490422
52.919	0.038484
53.162	0.03384118
53.4049	0.0418888
53.6479	0.0297142
53.8909	0.0257936
54.1338	0.0287856
54.3768	0.0276163
54.6198	0.0285449
54.8628	0.0317777
55.1057	0.0476321
55.3487	0.0361454
55.5917	0.0309867
55.8346	0.0336348
56.0776	0.0283729
56.3206	0.0286825
56.5636	0.0291983
56.8065	0.028201
57.0495	0.0299549
57.2925	0.0310555
57.5354	0.03239674
57.7784	0.04051312
58.0214	0.0735289
58.2644	0.21873
58.5073	0.0987378
58.7503	0.115899
58.9933	0.0698834
59.2363	0.0370396
59.4792	0.0300925
59.7222	0.0300581
59.9652	0.03026447
60.2081	0.0317433
60.4511	0.03532
60.6941	0.0307803
60.9371	0.03050521
61.18	0.0282354
61.423	0.0285793
61.666	0.0278915
61.9089	0.031537
62.1519	0.0399285
62.3949	0.0360766
62.6379	0.0396533
62.8808	0.0408914
63.1238	0.0298862
63.3668	0.0286825
63.6097	0.0285105
63.8527	0.0284761
64.0957	0.02740998
64.3387	0.0267909
64.5816	0.0261375
64.82459	0.02620628
65.0676	0.0277539
65.31059	0.0295766
65.5535	0.0415793
65.79649	0.033738
66.0395	0.0271348
66.28239	0.0252089
66.5254	0.02668776
66.76839	0.0269629
67.0114	0.0286481
67.2543	0.0292327
67.4973	0.0291983
67.7403	0.031365
67.9832	0.0365581
68.2262	0.0514496
68.46919	0.0497644
68.7122	0.0930976
68.95509	0.0851876
69.1981	0.0403068
69.44109	0.0312274
69.684	0.028201
69.92699	0.0272036
70.17	0.02716924
70.41299	0.0266534
70.6559	0.0268253
70.8989	0.0277195
71.1419	0.0277539
71.3849	0.0268941
71.6278	0.0264814
71.8708	0.0273412
72.1138	0.0271348
72.3567	0.0267565
72.59969	0.0270317
72.8427	0.0360078
73.08569	0.0363861
73.3286	0.0328438
73.57159	0.0393438
73.8146	0.0317089
74.0575	0.02716924
74.3005	0.0268597
74.5435	0.0277539
74.7865	0.0289576
75.0294	0.0311243
75.2724	0.0316401
75.5154	0.0308491
75.7584	0.0297142
76.0013	0.0277195
76.24429	0.0270317
76.4873	0.028201
76.73019	0.02882003
76.9732	0.0284761
77.21619	0.0313306
77.4592	0.04883585
77.7021	0.068439
77.9451	0.0477009
78.1881	0.0334629
78.431	0.0324311
78.674	0.03669567
78.917	0.04832
79.16	0.0438835
79.40289	0.0338068
79.6459	0.03026447
79.88889	0.0309867
80.03059	0.0287856